wl[nm],spd[-]
380.69,0.0000
381.09,0.0022
381.50,0.0022
381.90,0.0018
382.31,0.0032
382.71,0.0003
383.12,0.0000
383.52,0.0015
383.93,0.0000
384.33,0.0002
384.74,0.0000
385.14,0.0011
385.55,0.0001
385.95,0.0006
386.36,0.0000
386.76,0.0006
387.17,0.0003
387.57,0.0007
387.98,0.0008
388.38,0.0000
388.79,0.0000
389.19,0.0004
389.60,0.0001
390.00,0.0002
390.41,0.0005
390.82,0.0011
391.22,0.0008
391.63,0.0001
392.03,0.0002
392.44,0.0008
392.84,0.0000
393.25,0.0022
393.66,0.0016
394.06,0.0000
394.47,0.0000
394.87,0.0012
395.28,0.0023
395.69,0.0077
396.09,0.0000
396.50,0.0023
396.91,0.0011
397.31,0.0009
397.72,0.0011
398.13,0.0027
398.53,0.0036
398.94,0.0045
399.34,0.0028
399.75,0.0020
400.16,0.0015
400.57,0.0012
400.97,0.0030
401.38,0.0017
401.79,0.0028
402.19,0.0033
402.60,0.0047
403.01,0.0009
403.41,0.0035
403.82,0.0026
404.23,0.0025
404.64,0.0082
405.04,0.0042
405.45,0.0026
405.86,0.0053
406.26,0.0000
406.67,0.0065
407.08,0.0059
407.49,0.0000
407.89,0.0064
408.30,0.0049
408.71,0.0086
409.12,0.0078
409.53,0.0050
409.93,0.0057
410.34,0.0073
410.75,0.0105
411.16,0.0077
411.56,0.0045
411.97,0.0078
412.38,0.0111
412.79,0.0128
413.20,0.0188
413.61,0.0085
414.01,0.0092
414.42,0.0150
414.83,0.0201
415.24,0.0189
415.65,0.0176
416.06,0.0173
416.46,0.0205
416.87,0.0233
417.28,0.0247
417.69,0.0284
418.10,0.0288
418.51,0.0303
418.92,0.0265
419.32,0.0296
419.73,0.0324
420.14,0.0390
420.55,0.0355
420.96,0.0425
421.37,0.0405
421.78,0.0473
422.19,0.0549
422.60,0.0528
423.01,0.0571
423.42,0.0585
423.82,0.0599
424.23,0.0626
424.64,0.0700
425.05,0.0756
425.46,0.0799
425.87,0.0893
426.28,0.0886
426.69,0.0993
427.10,0.0964
427.51,0.1088
427.92,0.1105
428.33,0.1154
428.74,0.1322
429.15,0.1245
429.56,0.1349
429.97,0.1478
430.38,0.1512
430.79,0.1697
431.20,0.1806
431.61,0.1799
432.02,0.1904
432.43,0.1951
432.84,0.2065
433.25,0.2215
433.66,0.2256
434.07,0.2434
434.48,0.2573
434.89,0.2817
435.30,0.2946
435.71,0.3026
436.13,0.3172
436.54,0.3206
436.95,0.3479
437.36,0.3510
437.77,0.3853
438.18,0.4143
438.59,0.4211
439.00,0.4565
439.41,0.4601
439.82,0.4921
440.23,0.5203
440.65,0.5355
441.06,0.5834
441.47,0.6030
441.88,0.6445
442.29,0.6591
442.70,0.6955
443.11,0.7234
443.53,0.7639
443.94,0.7865
444.35,0.7983
444.76,0.8435
445.17,0.8681
445.58,0.8894
446.00,0.9173
446.41,0.9289
446.82,0.9380
447.23,0.9657
447.64,0.9900
448.05,0.9836
448.47,1.0000
448.88,0.9874
449.29,0.9682
449.70,0.9575
450.11,0.9542
450.53,0.9333
450.94,0.9039
451.35,0.8968
451.76,0.8677
452.18,0.8405
452.59,0.7986
453.00,0.7518
453.41,0.7423
453.83,0.7095
454.24,0.6849
454.65,0.6655
455.06,0.6302
455.48,0.6080
455.89,0.5834
456.30,0.5648
456.72,0.5437
457.13,0.5431
457.54,0.5244
457.96,0.5000
458.37,0.4931
458.78,0.4692
459.19,0.4568
459.61,0.4471
460.02,0.4424
460.43,0.4361
460.85,0.4303
461.26,0.4137
461.67,0.4002
462.09,0.4028
462.50,0.3926
462.92,0.3979
463.33,0.3901
463.74,0.3800
464.16,0.3680
464.57,0.3611
464.98,0.3667
465.40,0.3499
465.81,0.3470
466.23,0.3520
466.64,0.3257
467.05,0.3182
467.47,0.3267
467.88,0.3168
468.30,0.2997
468.71,0.3010
469.12,0.2926
469.54,0.2899
469.95,0.2753
470.37,0.2759
470.78,0.2726
471.20,0.2646
471.61,0.2630
472.02,0.2643
472.44,0.2654
472.85,0.2736
473.27,0.2644
473.68,0.2612
474.10,0.2568
474.51,0.2645
474.93,0.2655
475.34,0.2730
475.76,0.2662
476.17,0.2736
476.59,0.2776
477.00,0.2841
477.42,0.2822
477.83,0.2912
478.25,0.3018
478.66,0.2959
479.08,0.3110
479.49,0.3213
479.91,0.3284
480.32,0.3437
480.74,0.3383
481.16,0.3452
481.57,0.3462
481.99,0.3589
482.40,0.3737
482.82,0.3730
483.23,0.3852
483.65,0.3901
484.07,0.4006
484.48,0.3978
484.90,0.4201
485.31,0.4199
485.73,0.4341
486.15,0.4264
486.56,0.4448
486.98,0.4515
487.39,0.4635
487.81,0.4654
488.23,0.4700
488.64,0.4877
489.06,0.4858
489.48,0.4938
489.89,0.4900
490.31,0.4984
490.72,0.5069
491.14,0.5271
491.56,0.5216
491.97,0.5361
492.39,0.5393
492.81,0.5359
493.22,0.5494
493.64,0.5650
494.06,0.5820
494.48,0.5761
494.89,0.5696
495.31,0.5732
495.73,0.5740
496.14,0.5799
496.56,0.5871
496.98,0.6029
497.39,0.5927
497.81,0.6042
498.23,0.6036
498.65,0.5974
499.06,0.6153
499.48,0.6099
499.90,0.6181
500.32,0.6075
500.73,0.6081
501.15,0.6152
501.57,0.5874
501.99,0.5933
502.41,0.6019
502.82,0.6033
503.24,0.6077
503.66,0.6149
504.08,0.6114
504.49,0.6091
504.91,0.6127
505.33,0.6086
505.75,0.6130
506.17,0.6145
506.58,0.6016
507.00,0.6005
507.42,0.6102
507.84,0.5968
508.26,0.6099
508.68,0.6064
509.09,0.6066
509.51,0.5951
509.93,0.5928
510.35,0.6029
510.77,0.6027
511.19,0.6048
511.61,0.5951
512.03,0.5910
512.44,0.5876
512.86,0.5828
513.28,0.5930
513.70,0.5909
514.12,0.5764
514.54,0.5798
514.96,0.5870
515.38,0.5791
515.80,0.5722
516.21,0.5814
516.63,0.5731
517.05,0.5859
517.47,0.5821
517.89,0.5848
518.31,0.5780
518.73,0.5735
519.15,0.5814
519.57,0.5780
519.99,0.5698
520.41,0.5669
520.83,0.5701
521.25,0.5775
521.67,0.5681
522.09,0.5625
522.51,0.5809
522.93,0.5719
523.35,0.5689
523.77,0.5703
524.19,0.5705
524.61,0.5763
525.03,0.5599
525.45,0.5697
525.87,0.5606
526.29,0.5686
526.71,0.5659
527.13,0.5670
527.55,0.5582
527.97,0.5668
528.39,0.5607
528.81,0.5699
529.23,0.5724
529.65,0.5645
530.07,0.5685
530.49,0.5670
530.91,0.5673
531.33,0.5798
531.75,0.5784
532.18,0.5629
532.60,0.5786
533.02,0.5865
533.44,0.5699
533.86,0.5719
534.28,0.5699
534.70,0.5792
535.12,0.5805
535.54,0.5876
535.96,0.5781
536.39,0.5818
536.81,0.5955
537.23,0.5826
537.65,0.5804
538.07,0.5777
538.49,0.5822
538.91,0.5856
539.34,0.5906
539.76,0.5925
540.18,0.5996
540.60,0.5944
541.02,0.6092
541.44,0.5868
541.87,0.5902
542.29,0.5881
542.71,0.5889
543.13,0.6061
543.55,0.6036
543.98,0.6092
544.40,0.5992
544.82,0.5964
545.24,0.6113
545.66,0.6084
546.09,0.6073
546.51,0.6097
546.93,0.6109
547.35,0.6150
547.78,0.6142
548.20,0.6129
548.62,0.6095
549.04,0.6139
549.47,0.6155
549.89,0.6124
550.31,0.6203
550.73,0.6270
551.16,0.6215
551.58,0.6263
552.00,0.6304
552.42,0.6259
552.85,0.6195
553.27,0.6323
553.69,0.6217
554.12,0.6277
554.54,0.6315
554.96,0.6217
555.39,0.6332
555.81,0.6254
556.23,0.6307
556.65,0.6401
557.08,0.6258
557.50,0.6363
557.92,0.6392
558.35,0.6316
558.77,0.6315
559.20,0.6434
559.62,0.6354
560.04,0.6279
560.47,0.6362
560.89,0.6315
561.31,0.6503
561.74,0.6422
562.16,0.6282
562.59,0.6387
563.01,0.6443
563.43,0.6340
563.86,0.6285
564.28,0.6225
564.71,0.6268
565.13,0.6330
565.55,0.6425
565.98,0.6455
566.40,0.6445
566.83,0.6387
567.25,0.6537
567.67,0.6516
568.10,0.6597
568.52,0.6512
568.95,0.6434
569.37,0.6330
569.80,0.6465
570.22,0.6337
570.65,0.6308
571.07,0.6266
571.50,0.6234
571.92,0.6334
572.35,0.6379
572.77,0.6406
573.20,0.6485
573.62,0.6341
574.05,0.6482
574.47,0.6346
574.90,0.6364
575.32,0.6536
575.75,0.6601
576.17,0.6402
576.60,0.6537
577.02,0.6367
577.45,0.6468
577.87,0.6404
578.30,0.6387
578.72,0.6367
579.15,0.6458
579.57,0.6381
580.00,0.6365
580.42,0.6380
580.85,0.6476
581.28,0.6400
581.70,0.6489
582.13,0.6307
582.55,0.6353
582.98,0.6568
583.41,0.6328
583.83,0.6341
584.26,0.6342
584.68,0.6367
585.11,0.6564
585.54,0.6431
585.96,0.6553
586.39,0.6332
586.81,0.6489
587.24,0.6568
587.67,0.6508
588.09,0.6535
588.52,0.6374
588.95,0.6437
589.37,0.6489
589.80,0.6399
590.23,0.6527
590.65,0.6538
591.08,0.6539
591.51,0.6561
591.93,0.6588
592.36,0.6591
592.79,0.6615
593.21,0.6463
593.64,0.6577
594.07,0.6557
594.49,0.6664
594.92,0.6631
595.35,0.6674
595.77,0.6705
596.20,0.6633
596.63,0.6549
597.06,0.6688
597.48,0.6671
597.91,0.6801
598.34,0.6724
598.77,0.6626
599.19,0.6637
599.62,0.6718
600.05,0.6768
600.47,0.6779
600.90,0.6985
601.33,0.6823
601.76,0.6836
602.19,0.6895
602.61,0.6732
603.04,0.6935
603.47,0.7000
603.90,0.6859
604.32,0.6812
604.75,0.6745
605.18,0.6772
605.61,0.6981
606.04,0.6827
606.46,0.6972
606.89,0.7076
607.32,0.7098
607.75,0.7110
608.18,0.7100
608.61,0.7110
609.03,0.7089
609.46,0.7209
609.89,0.7210
610.32,0.7173
610.75,0.7224
611.18,0.7139
611.61,0.7222
612.03,0.7249
612.46,0.7183
612.89,0.7359
613.32,0.7228
613.75,0.7207
614.18,0.7334
614.61,0.7284
615.04,0.7167
615.46,0.7365
615.89,0.7264
616.32,0.7393
616.75,0.7490
617.18,0.7365
617.61,0.7345
618.04,0.7512
618.47,0.7527
618.90,0.7603
619.33,0.7462
619.76,0.7531
620.19,0.7522
620.61,0.7638
621.04,0.7717
621.47,0.7648
621.90,0.7591
622.33,0.7535
622.76,0.7550
623.19,0.7744
623.62,0.7543
624.05,0.7668
624.48,0.7764
624.91,0.7810
625.34,0.7732
625.77,0.7664
626.20,0.7605
626.63,0.7619
627.06,0.7630
627.49,0.7666
627.92,0.7711
628.35,0.7823
628.78,0.7801
629.21,0.7783
629.64,0.7671
630.07,0.7718
630.50,0.7695
630.93,0.7826
631.36,0.7652
631.79,0.7854
632.22,0.7877
632.66,0.7634
633.09,0.7692
633.52,0.7612
633.95,0.7676
634.38,0.7725
634.81,0.7671
635.24,0.7763
635.67,0.7594
636.10,0.7720
636.53,0.7565
636.96,0.7826
637.39,0.7763
637.83,0.7761
638.26,0.7797
638.69,0.7770
639.12,0.7750
639.55,0.7668
639.98,0.7605
640.41,0.7663
640.84,0.7463
641.27,0.7588
641.71,0.7463
642.14,0.7449
642.57,0.7511
643.00,0.7560
643.43,0.7511
643.86,0.7436
644.30,0.7510
644.73,0.7376
645.16,0.7426
645.59,0.7273
646.02,0.7332
646.45,0.7283
646.89,0.7374
647.32,0.7224
647.75,0.7345
648.18,0.7270
648.61,0.7207
649.05,0.7244
649.48,0.7145
649.91,0.6984
650.34,0.7098
650.77,0.7142
651.21,0.7072
651.64,0.6999
652.07,0.7013
652.50,0.6816
652.94,0.6827
653.37,0.6851
653.80,0.6785
654.23,0.6951
654.67,0.6915
655.10,0.6896
655.53,0.6797
655.96,0.6859
656.40,0.6766
656.83,0.6742
657.26,0.6646
657.69,0.6545
658.13,0.6569
658.56,0.6560
658.99,0.6523
659.43,0.6571
659.86,0.6457
660.29,0.6462
660.73,0.6309
661.16,0.6452
661.59,0.6265
662.02,0.6330
662.46,0.6342
662.89,0.6227
663.32,0.6187
663.76,0.6122
664.19,0.6070
664.62,0.6119
665.06,0.5998
665.49,0.6048
665.93,0.5812
666.36,0.5886
666.79,0.5852
667.23,0.5761
667.66,0.5861
668.09,0.5793
668.53,0.5713
668.96,0.5606
669.39,0.5596
669.83,0.5615
670.26,0.5619
670.70,0.5551
671.13,0.5518
671.56,0.5344
672.00,0.5521
672.43,0.5420
672.87,0.5252
673.30,0.5278
673.74,0.5162
674.17,0.5186
674.60,0.5113
675.04,0.5113
675.47,0.5035
675.91,0.4972
676.34,0.4927
676.78,0.4939
677.21,0.4857
677.65,0.4833
678.08,0.4870
678.51,0.4752
678.95,0.4739
679.38,0.4661
679.82,0.4681
680.25,0.4573
680.69,0.4625
681.12,0.4493
681.56,0.4587
681.99,0.4409
682.43,0.4430
682.86,0.4341
683.30,0.4415
683.73,0.4190
684.17,0.4211
684.60,0.4182
685.04,0.4027
685.47,0.4114
685.91,0.4072
686.34,0.4027
686.78,0.4116
687.21,0.4026
687.65,0.3896
688.09,0.3845
688.52,0.3830
688.96,0.3639
689.39,0.3837
689.83,0.3706
690.26,0.3731
690.70,0.3683
691.14,0.3737
691.57,0.3586
692.01,0.3627
692.44,0.3628
692.88,0.3464
693.31,0.3544
693.75,0.3515
694.19,0.3470
694.62,0.3322
695.06,0.3230
695.49,0.3171
695.93,0.3179
696.37,0.3257
696.80,0.3206
697.24,0.3201
697.68,0.3190
698.11,0.3088
698.55,0.3043
698.98,0.3032
699.42,0.3031
699.86,0.2847
700.29,0.2972
700.73,0.2897
701.17,0.2816
701.60,0.2761
702.04,0.2723
702.48,0.2789
702.91,0.2790
703.35,0.2719
703.79,0.2670
704.22,0.2657
704.66,0.2669
705.10,0.2516
705.53,0.2552
705.97,0.2537
706.41,0.2495
706.85,0.2556
707.28,0.2469
707.72,0.2438
708.16,0.2379
708.59,0.2312
709.03,0.2274
709.47,0.2235
709.91,0.2278
710.34,0.2185
710.78,0.2240
711.22,0.2246
711.66,0.2105
712.09,0.2134
712.53,0.2092
712.97,0.2060
713.41,0.2051
713.84,0.2108
714.28,0.2018
714.72,0.1949
715.16,0.1903
715.59,0.1932
716.03,0.1883
716.47,0.1834
716.91,0.1833
717.34,0.1865
717.78,0.1872
718.22,0.1855
718.66,0.1798
719.10,0.1794
719.53,0.1692
719.97,0.1720
720.41,0.1705
720.85,0.1599
721.29,0.1641
721.73,0.1598
722.16,0.1600
722.60,0.1573
723.04,0.1592
723.48,0.1567
723.92,0.1462
724.36,0.1454
724.79,0.1547
725.23,0.1486
725.67,0.1460
726.11,0.1354
726.55,0.1405
726.99,0.1376
727.43,0.1380
727.87,0.1374
728.30,0.1405
728.74,0.1277
729.18,0.1300
729.62,0.1265
730.06,0.1234
730.50,0.1275
730.94,0.1227
731.38,0.1227
731.82,0.1163
732.25,0.1231
732.69,0.1137
733.13,0.1145
733.57,0.1127
734.01,0.1084
734.45,0.1124
734.89,0.1101
735.33,0.1069
735.77,0.1133
736.21,0.1066
736.65,0.1038
737.09,0.1047
737.53,0.0993
737.97,0.1028
738.41,0.1003
738.85,0.1088
739.28,0.0948
739.72,0.0954
740.16,0.0942
740.60,0.0963
741.04,0.0923
741.48,0.0896
741.92,0.0940
742.36,0.0857
742.80,0.0877
743.24,0.0833
743.68,0.0820
744.12,0.0803
744.56,0.0806
745.00,0.0792
745.44,0.0806
745.88,0.0763
746.32,0.0817
746.76,0.0735
747.20,0.0738
747.64,0.0748
748.08,0.0774
748.53,0.0671
748.97,0.0706
749.41,0.0723
749.85,0.0716
750.29,0.0654
750.73,0.0701
751.17,0.0698
751.61,0.0611
752.05,0.0677
752.49,0.0638
752.93,0.0627
753.37,0.0599
753.81,0.0586
754.25,0.0581
754.69,0.0605
755.13,0.0591
755.58,0.0601
756.02,0.0557
756.46,0.0514
756.90,0.0535
757.34,0.0552
757.78,0.0555
758.22,0.0533
758.66,0.0505
759.10,0.0527
759.55,0.0500
759.99,0.0508
760.43,0.0489
760.87,0.0504
761.31,0.0510
761.75,0.0491
762.19,0.0473
762.63,0.0466
763.08,0.0417
763.52,0.0430
763.96,0.0438
764.40,0.0441
764.84,0.0438
765.28,0.0398
765.73,0.0447
766.17,0.0407
766.61,0.0387
767.05,0.0388
767.49,0.0446
767.93,0.0403
768.38,0.0374
768.82,0.0421
769.26,0.0393
769.70,0.0330
770.14,0.0316
770.59,0.0325
771.03,0.0364
771.47,0.0375
771.91,0.0312
772.35,0.0344
772.80,0.0376
773.24,0.0310
773.68,0.0382
774.12,0.0280
774.57,0.0320
775.01,0.0329
775.45,0.0301
775.89,0.0313
776.34,0.0281
776.78,0.0304
777.22,0.0291
777.66,0.0303
778.11,0.0278
778.55,0.0271
778.99,0.0275
779.43,0.0262
779.88,0.0350
